BYTEORDER I
LAYOUT BIL
NROWS 1
NCOLS 1600
NBANDS 978
NBITS 16
BANDROWBYTES 1020
TOTALROWBYTES 648720
BANDGAPBYTES 0
CHROMATICCORRECTION True
STARTWAVELENGTH 899.59
ENDWAVELENGTH 1693.75
INTEGRATIONTIME 100000
GAIN 0
WAVELENGTHS
899.59
900.84
902.09
903.34
904.59
905.84
907.09
908.34
909.58
910.83
912.08
913.33
914.58
915.83
917.08
918.33
919.58
920.83
922.08
923.33
924.58
925.82
927.07
928.32
929.57
930.82
932.07
933.32
934.57
935.82
937.07
938.32
939.57
940.82
942.06
943.31
944.56
945.81
947.06
948.31
949.56
950.81
952.06
953.31
954.56
955.81
957.06
958.30
959.55
960.80
962.05
963.30
964.55
965.80
967.05
968.30
969.55
970.80
972.05
973.30
974.54
975.79
977.04
978.29
979.54
980.79
982.04
983.29
984.54
985.79
987.04
988.29
989.54
990.78
992.03
993.28
994.53
995.78
997.03
998.28
999.53
1000.78
1002.03
1003.28
1004.53
1005.78
1007.03
1008.27
1009.52
1010.77
1012.02
1013.27
1014.52
1015.77
1017.02
1018.27
1019.52
1020.77
1022.02
1023.27
1024.51
1025.76
1027.01
1028.26
1029.51
1030.76
1032.01
1033.26
1034.51
1035.76
1037.01
1038.26
1039.51
1040.75
1042.00
1043.25
1044.50
1045.75
1047.00
1048.26
1049.51
1050.77
1052.03
1053.28
1054.54
1055.80
1057.05
1058.31
1059.57
1060.83
1062.08
1063.34
1064.60
1065.85
1067.11
1068.37
1069.62
1070.88
1072.14
1073.39
1074.65
1075.91
1077.16
1078.42
1079.68
1080.93
1082.19
1083.45
1084.70
1085.96
1087.22
1088.47
1089.73
1090.99
1092.25
1093.50
1094.76
1096.02
1097.27
1098.53
1099.79
1101.04
1102.30
1103.56
1104.81
1106.07
1107.33
1108.58
1109.84
1111.10
1112.35
1113.61
1114.87
1116.12
1117.38
1118.64
1119.89
1121.15
1122.41
1123.66
1124.92
1126.18
1127.44
1128.69
1129.95
1131.21
1132.46
1133.72
1134.98
1136.23
1137.49
1138.75
1140.00
1141.26
1142.52
1143.77
1145.03
1146.29
1147.54
1148.80
1150.05
1151.31
1152.56
1153.81
1155.06
1156.32
1157.57
1158.82
1160.07
1161.33
1162.58
1163.83
1165.08
1166.34
1167.59
1168.84
1170.10
1171.35
1172.60
1173.85
1175.11
1176.36
1177.61
1178.86
1180.12
1181.37
1182.62
1183.87
1185.13
1186.38
1187.63
1188.88
1190.14
1191.39
1192.64
1193.90
1195.15
1196.40
1197.65
1198.91
1200.16
1201.41
1202.66
1203.92
1205.17
1206.42
1207.67
1208.93
1210.18
1211.43
1212.68
1213.94
1215.19
1216.44
1217.70
1218.95
1220.20
1221.45
1222.71
1223.96
1225.21
1226.46
1227.72
1228.97
1230.22
1231.47
1232.73
1233.98
1235.23
1236.48
1237.74
1238.99
1240.24
1241.50
1242.75
1244.00
1245.26
1246.52
1247.78
1249.04
1250.31
1251.57
1252.83
1254.09
1255.35
1256.61
1257.87
1259.13
1260.39
1261.65
1262.92
1264.18
1265.44
1266.70
1267.96
1269.22
1270.48
1271.74
1273.00
1274.26
1275.52
1276.79
1278.05
1279.31
1280.57
1281.83
1283.09
1284.35
1285.61
1286.87
1288.13
1289.40
1290.66
1291.92
1293.18
1294.44
1295.70
1296.94
1298.19
1299.43
1300.67
1301.92
1303.16
1304.40
1305.65
1306.89
1308.13
1309.38
1310.62
1311.86
1313.10
1314.35
1315.59
1316.83
1318.08
1319.32
1320.56
1321.81
1323.05
1324.29
1325.54
1326.78
1328.02
1329.27
1330.51
1331.75
1333.00
1334.24
1335.48
1336.73
1337.97
1339.21
1340.46
1341.70
1342.94
1344.18
1345.43
1346.67
1347.91
1349.16
1350.40
1351.59
1352.78
1353.97
1355.16
1356.34
1357.53
1358.72
1359.91
1361.10
1362.29
1363.48
1364.67
1365.86
1367.04
1368.23
1369.42
1370.61
1371.80
1373.05
1374.31
1375.56
1376.81
1378.07
1379.32
1380.57
1381.83
1383.08
1384.33
1385.59
1386.84
1388.09
1389.35
1390.60
1391.85
1393.11
1394.36
1395.61
1396.87
1398.12
1399.37
1400.63
1401.88
1403.13
1404.39
1405.64
1406.89
1408.15
1409.40
1410.65
1411.91
1413.16
1414.41
1415.66
1416.92
1418.17
1419.42
1420.67
1421.93
1423.18
1424.43
1425.68
1426.94
1428.19
1429.44
1430.70
1431.95
1433.20
1434.45
1435.71
1436.96
1438.21
1439.46
1440.72
1441.97
1443.22
1444.47
1445.73
1446.98
1448.23
1449.48
1450.74
1451.99
1453.24
1454.50
1455.75
1457.00
1458.25
1459.51
1460.76
1462.01
1463.26
1464.52
1465.77
1467.02
1468.27
1469.53
1470.78
1472.03
1473.28
1474.54
1475.79
1477.04
1478.30
1479.55
1480.80
1482.05
1483.31
1484.56
1485.81
1487.06
1488.32
1489.57
1490.82
1492.07
1493.33
1494.58
1495.83
1497.08
1498.34
1499.59
1500.84
1502.10
1503.35
1504.60
1505.85
1507.11
1508.36
1509.61
1510.86
1512.12
1513.37
1514.62
1515.87
1517.13
1518.38
1519.63
1520.88
1522.14
1523.39
1524.64
1525.90
1527.15
1528.40
1529.65
1530.91
1532.16
1533.41
1534.66
1535.92
1537.17
1538.42
1539.67
1540.93
1542.18
1543.43
1544.68
1545.94
1547.19
1548.44
1549.70
1550.95
1552.20
1553.45
1554.71
1555.96
1557.21
1558.46
1559.72
1560.97
1562.22
1563.47
1564.73
1565.98
1567.23
1568.48
1569.74
1570.99
1572.24
1573.50
1574.75
1576.00
1577.25
1578.51
1579.76
1581.01
1582.26
1583.52
1584.77
1586.02
1587.27
1588.53
1589.78
1591.03
1592.28
1593.54
1594.79
1596.04
1597.30
1598.55
1599.80
1601.05
1602.31
1603.56
1604.81
1606.06
1607.32
1608.57
1609.82
1611.07
1612.33
1613.58
1614.83
1616.08
1617.34
1618.59
1619.84
1621.10
1622.35
1623.60
1624.85
1626.11
1627.36
1628.61
1629.86
1631.12
1632.37
1633.62
1634.87
1636.13
1637.38
1638.63
1639.88
1641.14
1642.39
1643.64
1644.90
1646.15
1647.40
1648.65
1649.91
1651.16
1652.41
1653.66
1654.92
1656.17
1657.42
1658.67
1659.93
1661.18
1662.43
1663.68
1664.94
1666.19
1667.44
1668.70
1669.95
1671.20
1672.45
1673.71
1674.96
1676.21
1677.46
1678.72
1679.97
1681.22
1682.47
1683.73
1684.98
1686.23
1687.48
1688.74
1689.99
1691.24
1692.50
1693.75
WAVELENGTHS_END
